Folder: data_formatting_tools/gnuplot_csv

Note: gnuplot_csv/README.md
# CSV plotting
gnuplot script for plotting csv
## Usage
this script plots csv files with the format below:
```
title - some text that explains what this data is.
x title,y title
0,123
10,543
.
.
.
```
execute the following command to draw:
```bash
$ gnuplot -c 'plot.plt' 'your-csv-filepath.csv' # display graph on screen
$ gnuplot -c 'plot.plt' 'your-csv-filepath.csv' 'output-png-filepath.png' # save graph to png file
```

File: ferrocene_uvvis.csv
UV-Vis Spectrum of Solution of Ferrocene in anhydrous Acetone
wavelength,absorbance
800,-0.0036907
798.6,-0.00367584
797.2,-0.0037039
795.8,-0.00367638
794.4,-0.00368718
793,-0.00363573
791.6,-0.00366098
790.2,-0.00363041
788.8,-0.00363364
787.4,-0.00360683
786,-0.00360868
784.6,-0.00360003
783.2,-0.00357078
781.8,-0.00360624
780.4,-0.00363579
779,-0.00366742
777.6,-0.00365262
776.2,-0.00368945
774.8,-0.00368151
773.4,-0.00368205
772,-0.00370324
770.6,-0.00369476
769.2,-0.00372115
767.8,-0.00367972
766.4,-0.00367023
765,-0.00363752
763.6,-0.00365077
762.2,-0.00358982
760.8,-0.00358373
759.4,-0.00352977
758,-0.00355997
756.6,-0.00354284
755.2,-0.00354296
753.8,-0.00351825
752.4,-0.00355645
751,-0.00352995
749.6,-0.00351085
748.2,-0.00350858
746.8,-0.00352517
745.4,-0.00355263
744,-0.00354147
742.6,-0.00355836
741.2,-0.00354959
739.8,-0.00357072
738.4,-0.00354863
737,-0.00359012
735.6,-0.00351288
734.2,-0.00357866
732.8,-0.00358463
731.4,-0.00350995
730,-0.00340161
728.6,-0.00338322
727.2,-0.00328741
725.8,-0.00340507
724.4,-0.00339731
723,-0.00333003
721.6,-0.0033043
720.2,-0.00332197
718.8,-0.00326282
717.4,-0.00324228
716,-0.00323082
714.6,-0.00319554
713.2,-0.00318611
711.8,-0.00318766
710.4,-0.00315352
709,-0.00308111
707.6,-0.00307436
706.2,-0.00304392
704.8,-0.00299246
703.4,-0.00295533
702,-0.00292262
700.6,-0.0028332
699.2,-0.00285696
697.8,-0.00277022
696.4,-0.00275261
695,-0.00271471
693.6,-0.00264379
692.2,-0.00257598
690.8,-0.00255461
689.4,-0.00251598
688,-0.00252375
686.6,-0.00244035
685.2,-0.00241862
683.8,-0.00242316
682.4,-0.00239057
681,-0.00233887
679.6,-0.00229756
678.2,-0.00226646
676.8,-0.00221011
675.4,-0.00219053
674,-0.00210183
672.6,-0.00204028
671.2,-0.00206106
669.8,-0.00202106
668.4,-0.0019597
667,-0.00196453
665.6,-0.00196668
664.2,-0.00195522
662.8,-0.00191027
661.4,-0.00184413
660,-0.00185929
658.6,-0.00184102
657.2,-0.0018215
655.8,-0.00181512
654.4,-0.00179554
653,-0.00173059
651.6,-0.00179034
650.2,-0.00171047
648.8,-0.00172498
647.4,-0.00164869
646,-0.00158571
644.6,-0.00151169
643.2,-0.00150638
641.8,-0.00143105
640.4,-0.00138269
639,-0.00135332
637.6,-0.00130855
636.2,-0.001295
634.8,-0.00122027
633.4,-0.00119191
632,-0.00109533
630.6,-0.0011198
629.2,-0.00100328
627.8,-0.00103312
626.4,-0.00100853
625,-0.000914274
623.6,-0.000923825
622.2,-0.000844432
620.8,-0.000873742
619.4,-0.000746832
618,-0.000660455
616.6,-0.00065353
615.2,-0.000629354
613.8,-0.000529665
612.4,-0.000468121
611,-0.000414098
609.6,-0.000393145
608.2,-0.000356314
606.8,-0.000322706
605.4,-0.000231732
604,-0.000234001
602.6,-0.000156458
601.2,-4.65614E-05
599.8,-3.52792E-05
598.4,-9.84952E-06
597,0.000122791
595.6,0.000186007
594.2,0.000191379
592.8,0.000225763
591.4,0.000350344
590,0.000360731
588.6,0.00045266
587.2,0.000527695
585.8,0.00059903
584.4,0.000713225
583,0.000868907
581.6,0.000913021
580.2,0.00105354
578.8,0.00114075
577.4,0.00127399
576,0.00137034
574.6,0.00150232
573.2,0.00167895
571.8,0.00188388
570.4,0.0020715
569,0.00229631
567.6,0.0025752
566.2,0.00280884
564.8,0.00306099
563.4,0.00338823
562,0.00373452
560.6,0.0041008
559.2,0.00452045
557.8,0.0049798
556.4,0.00549066
555,0.00604086
553.6,0.00677008
552.2,0.00734076
550.8,0.00822614
549.4,0.00913331
548,0.0100574
546.6,0.0111146
545.2,0.0122675
543.8,0.0134784
542.4,0.0149583
541,0.0164667
539.6,0.0181669
538.2,0.019996
536.8,0.0219949
535.4,0.0241205
534,0.0264662
532.6,0.0290409
531.2,0.0318919
529.8,0.0349407
528.4,0.0382467
527,0.041893
525.6,0.0458109
524.2,0.0499466
522.8,0.0544579
521.4,0.0593235
520,0.0643453
518.6,0.0698351
517.2,0.0756029
515.8,0.0818056
514.4,0.0882756
513,0.0951809
511.6,0.1026
510.2,0.110347
508.8,0.118341
507.4,0.126822
506,0.135558
504.6,0.144692
503.2,0.15425
501.8,0.164096
500.4,0.174423
499,0.185973
497.6,0.196607
496.2,0.207636
494.8,0.218785
493.4,0.230259
492,0.24177
490.6,0.253415
489.2,0.265162
487.8,0.276926
486.4,0.28871
485,0.300477
483.6,0.312322
482.2,0.324053
480.8,0.335705
479.4,0.347073
478,0.358301
476.6,0.36925
475.2,0.380082
473.8,0.390615
472.4,0.400728
471,0.410519
469.6,0.419841
468.2,0.428793
466.8,0.437361
465.4,0.445513
464,0.453085
462.6,0.460062
461.2,0.46676
459.8,0.47296
458.4,0.478544
457,0.483984
455.6,0.488806
454.2,0.493223
452.8,0.497039
451.4,0.500482
450,0.5034
448.6,0.505918
447.2,0.508067
445.8,0.509642
444.4,0.510992
443,0.511888
441.6,0.512598
440.2,0.512726
438.8,0.512567
437.4,0.512134
436,0.511205
434.6,0.509952
433.2,0.5083
431.8,0.506031
430.4,0.503694
429,0.50083
427.6,0.497567
426.2,0.493776
424.8,0.489519
423.4,0.484776
422,0.479561
420.6,0.473919
419.2,0.467746
417.8,0.461033
416.4,0.453818
415,0.445973
413.6,0.437765
412.2,0.42895
410.8,0.419847
409.4,0.409543
408,0.399247
406.6,0.388116
405.2,0.376844
403.8,0.365
402.4,0.353112
401,0.340953
400,0.331651